Data from empty_16h_Absorbance_10-10-19-686.txt Node
Date: Thu Aug 24 10:10:19 EDT 2023
User: UV-vis
Spectrometer: FLMS04918
Trigger mode: 0
Integration Time (sec): 1.000000E-1
Scans to average: 3
Electric dark correction enabled: true
Nonlinearity correction enabled: false
Boxcar width: 3
XAxis mode: Wavelengths
Number of Pixels in Spectrum: 2048
>>>>>Begin Spectral Data<<<<<
179.23	0.12647
179.611	0.12683
179.992	-0.02306
180.373	-0.0166
180.754	-0.04621
181.134	-0.07502
181.515	0.06677
181.896	-0
182.276	-0.41905
182.657	-0
183.038	-0
183.418	-0
183.799	-0.49897
184.179	-0.17756
184.56	-0
184.94	-0.35607
185.32	-1.11561
185.701	-0
186.081	0.85235
186.461	-0
186.842	0.03799
187.222	0.01194
187.602	0.00766
187.982	0.0049
188.362	0.00328
188.742	0.00116
189.122	0.00131
189.502	0.00102
189.882	0.00135
190.262	0.00085
190.642	0.00151
191.022	0.00166
191.402	0.00128
191.781	0.00047
192.161	0.00042
192.541	0.00001
192.92	0.00023
193.3	-0.00079
193.68	0.00043
194.059	0.00157
194.439	0.00243
194.818	0.0026
195.198	0.00123
195.577	0.00107
195.957	0.00114
196.336	0.0003
196.715	0.0002
197.094	-0.00002
197.474	-0.00136
197.853	-0.0007
198.232	-0.0003
198.611	-0.00117
198.99	-0.00147
199.369	-0.00175
199.748	-0.00227
200.127	-0.00118
200.506	-0.00111
200.885	-0.00048
201.264	0.00119
201.643	0.00212
202.022	0.00212
202.401	0.00213
202.779	0.00141
203.158	0.00246
203.537	0.00118
203.915	0.00076
204.294	0.00064
204.673	0.00093
205.051	0.00069
205.43	0.00124
205.808	0.00057
206.187	0.00012
206.565	0.00012
206.943	0.00023
207.322	-0.00026
207.7	-0.00005
208.078	0.00027
208.456	-0.00005
208.835	0.00033
209.213	-0.00001
209.591	-0.00057
209.969	-0.00064
210.347	0.00041
210.725	0.00076
211.103	0.00116
211.481	0.00222
211.859	0.00254
212.237	0.00225
212.614	0.00143
212.992	0.0006
213.37	0.00013
213.748	-0.00041
214.125	-0.0012
214.503	-0.00094
214.881	-0.00212
215.258	-0.0011
215.636	-0.00104
216.013	-0.00115
216.391	-0.00047
216.768	-0.00096
217.145	-0.00235
217.523	-0.00083
217.9	-0.00119
218.277	-0.00092
218.655	-0.00111
219.032	-0.0008
219.409	-0.00002
219.786	0.00174
220.163	0.00167
220.54	0.00171
220.917	0.00173
221.294	0.0015
221.671	0.00113
222.048	0.00097
222.425	0.00114
222.802	0.00144
223.179	0.00259
223.556	0.00176
223.932	0.00292
224.309	0.00163
224.686	0.00184
225.062	0.00153
225.439	0.00153
225.815	0.00064
226.192	0.0012
226.568	0.00003
226.945	0.00137
227.321	0.00136
227.698	0.00046
228.074	0.00045
228.45	-0.00049
228.827	-0.00092
229.203	-0.00023
229.579	0.00026
229.955	0.00088
230.331	0.00114
230.707	0.00115
231.083	0.00175
231.46	0.00218
231.835	0.00244
232.211	0.00176
232.587	0.00063
232.963	0.00202
233.339	0.00084
233.715	0.00141
234.091	0.00185
234.466	0.00113
234.842	0.00159
235.218	0.00217
235.593	0.00041
235.969	0.00134
236.344	0.0012
236.72	-0.00015
237.095	0.00035
237.471	0.00055
237.846	0.00005
238.222	0.00017
238.597	0.00076
238.972	0.00112
239.348	0.0022
239.723	0.00252
240.098	0.00104
240.473	0.00148
240.848	0.00169
241.223	0.00137
241.598	0.00137
241.973	0.001
242.348	0.00052
242.723	-0.00022
243.098	-0.00052
243.473	0.0006
243.848	0.00023
244.223	-0.00019
244.597	-0.00062
244.972	-0.00167
245.347	-0.00069
245.721	-0.00097
246.096	-0.00144
246.47	-0.00111
246.845	-0.00085
247.219	-0.00058
247.594	0.00134
247.968	0.00175
248.343	0.00248
248.717	0.00209
249.091	0.0021
249.466	0.00156
249.84	0.00185
250.214	0.00062
250.588	0.00074
250.962	0.00028
251.336	-0.00036
251.71	-0.00082
252.084	-0.00027
252.458	0.00044
252.832	0.00067
253.206	0.00135
253.58	0.00186
253.954	0.00253
254.328	0.00251
254.702	0.0012
255.075	0.00106
255.449	0.00083
255.823	0.00075
256.196	0.0001
256.57	0.00167
256.943	0.00257
257.317	0.00369
257.69	0.00325
258.064	0.0036
258.437	0.00368
258.81	0.00395
259.184	0.00205
259.557	0.00024
259.93	-0.00031
260.303	-0.00092
260.677	-0.0017
261.05	-0.00165
261.423	-0.00098
261.796	-0.00007
262.169	0.001
262.542	0.00184
262.915	0.00238
263.288	0.00268
263.661	0.00216
264.033	0.00129
264.406	0.00052
264.779	0.00029
265.152	0.00006
265.524	-0.00051
265.897	-0.00041
266.27	-0.00076
266.642	-0.00067
267.015	-0.00037
267.387	-0.00049
267.76	-0.00114
268.132	-0.00044
268.504	0.00009
268.877	0.00028
269.249	0.00026
269.621	-0.00069
269.994	-0.00094
270.366	-0.00045
270.738	-0.00137
271.11	-0.00236
271.482	-0.0022
271.854	-0.00186
272.226	-0.00053
272.598	0.0001
272.97	0.0002
273.342	0.00109
273.714	0.00174
274.086	0.0012
274.458	0.00114
274.829	0.00082
275.201	-0.00013
275.573	0.00023
275.944	0.00059
276.316	-0.00008
276.688	0.00075
277.059	0.00056
277.431	0.00094
277.802	0.00112
278.173	0.00059
278.545	0.00012
278.916	0.00154
279.287	0.00119
279.659	0.00138
280.03	0.0008
280.401	0.00173
280.772	0.00188
281.143	0.00226
281.515	0.00162
281.886	0.00217
282.257	0.00166
282.628	0.00145
282.998	0.00085
283.369	0.0007
283.74	0.0004
284.111	0.0003
284.482	-0.00016
284.853	-0.00004
285.223	0.00003
285.594	0.0002
285.965	0.0002
286.335	0.0002
286.706	0.0002
287.076	0.0002
287.447	0.0002
287.817	0.0002
288.188	0.0002
288.558	0.0002
288.928	0.0002
289.299	0.0002
289.669	0.0002
290.039	0.0002
290.409	0.0002
290.779	0.0002
291.149	0.0002
291.52	0.0002
291.89	0.0002
292.26	0.0002
292.629	0.0002
292.999	0.0002
293.369	0.0002
293.739	0.0002
294.109	0.0002
294.479	0.0002
294.848	0.0002
295.218	0.0002
295.588	0.0002
295.957	0.0002
296.327	0.0002
296.696	0.0002
297.066	0.0002
297.435	0.0002
297.805	0.0002
298.174	0.0002
298.544	0.0002
298.913	0.0002
299.282	0.0002
299.651	0.0002
300.021	0.0002
300.39	0.0002
300.759	0.0002
301.128	0.0002
301.497	0.0002
301.866	0.0002
302.235	0.0002
302.604	0.0002
302.973	0.0002
303.342	0.0002
303.71	0.0002
304.079	0.0002
304.448	0.0002
304.817	0.0002
305.185	0.0002
305.554	0.0002
305.923	0.0002
306.291	0.0002
306.66	0.0002
307.028	0.0002
307.397	0.0002
307.765	0.0002
308.133	0.0002
308.502	0.0002
308.87	0.0002
309.238	0.0002
309.606	0.0002
309.975	0.0002
310.343	0.0002
310.711	0.0002
311.079	0.0002
311.447	0.0002
311.815	0.0002
312.183	0.0002
312.551	0.0002
312.919	0.0002
313.286	0.0002
313.654	0.0002
314.022	0.0002
314.39	0.0002
314.757	0.0002
315.125	0.0002
315.492	0.0002
315.86	0.0002
316.228	0.0002
316.595	0.0002
316.962	0.0002
317.33	0.0002
317.697	0.0002
318.065	0.0002
318.432	0.0002
318.799	0.0002
319.166	0.0002
319.534	0.0002
319.901	0.0002
320.268	0.0002
320.635	0.0002
321.002	0.0002
321.369	0.0002
321.736	0.0002
322.103	0.0002
322.47	0.0002
322.836	0.0002
323.203	0.0002
323.57	0.0002
323.937	0.0002
324.303	0.0002
324.67	0.0002
325.037	0.0002
325.403	0.0002
325.77	0.0002
326.136	0.0002
326.503	0.0002
326.869	0.0002
327.235	0.0002
327.602	0.0002
327.968	0.0002
328.334	0.0002
328.7	0.0002
329.067	0.0002
329.433	0.0002
329.799	0.0002
330.165	0.0002
330.531	0.0002
330.897	0.0002
331.263	0.0002
331.629	0.0002
331.995	0.0002
332.36	0.0002
332.726	0.0002
333.092	0.0002
333.458	0.0002
333.823	0.0002
334.189	0.0002
334.554	0.0002
334.92	0.0002
335.286	0.0002
335.651	0.0002
336.016	0.0002
336.382	0.0002
336.747	0.0002
337.113	0.0002
337.478	0.0002
337.843	0.0002
338.208	0.0002
338.573	0.0002
338.939	0.0002
339.304	0.0002
339.669	0.0002
340.034	0.0002
340.399	0.0002
340.764	0.0002
341.129	0.0002
341.493	0.0002
341.858	0.0002
342.223	0.0002
342.588	0.0002
342.952	0.0002
343.317	0.0002
343.682	0.0002
344.046	0.0002
344.411	0.0002
344.775	0.0002
345.14	0.0002
345.504	0.0002
345.869	0.0002
346.233	0.0002
346.597	0.0002
346.962	0.0002
347.326	0.0002
347.69	0.0002
348.054	0.0002
348.418	0.0002
348.782	0.0002
349.146	0.0002
349.51	0.0002
349.874	0.0002
350.238	0.0002
350.602	0.0002
350.966	0.0002
351.33	0.0002
351.693	0.0002
352.057	0.0002
352.421	0.0002
352.784	0.0002
353.148	0.0002
353.512	0.0002
353.875	0.0002
354.239	0.0002
354.602	0.0002
354.966	0.0002
355.329	0.0002
355.692	0.0002
356.056	0.0002
356.419	0.0002
356.782	0.0002
357.145	0.0002
357.508	0.0002
357.871	0.0002
358.234	0.0002
358.597	0.0002
358.96	0.0002
359.323	0.0002
359.686	0.0002
360.049	0.0002
360.412	0.0002
360.775	0.0002
361.137	0.0002
361.5	0.0002
361.863	0.0002
362.225	0.0002
362.588	0.0002
362.951	0.0002
363.313	0.0002
363.675	0.0002
364.038	0.0002
364.4	0.0002
364.763	0.0002
365.125	0.0002
365.487	0.0002
365.849	0.0002
366.212	0.0002
366.574	0.0002
366.936	0.0002
367.298	0.0002
367.66	0.0002
368.022	0.0002
368.384	0.0002
368.746	0.0002
369.108	0.0002
369.469	0.0002
369.831	0.0002
370.193	0.0002
370.555	0.0002
370.916	0.0002
371.278	0.0002
371.64	0.0002
372.001	0.0002
372.363	0.0002
372.724	0.0002
373.086	0.0002
373.447	0.0002
373.808	0.0002
374.17	0.0002
374.531	0.0002
374.892	0.0002
375.253	0.0002
375.615	0.0002
375.976	0.0002
376.337	0.0002
376.698	0.0002
377.059	0.0002
377.42	0.0002
377.781	0.0002
378.141	0.0002
378.502	0.0002
378.863	0.0002
379.224	0.0002
379.585	0.0002
379.945	0.0002
380.306	0.0002
380.666	0.0002
381.027	0.0002
381.388	0.0002
381.748	0.0002
382.108	0.0002
382.469	0.0002
382.829	0.0002
383.19	0.0002
383.55	0.0002
383.91	0.0002
384.27	0.0002
384.63	0.0002
384.991	0.0002
385.351	0.0002
385.711	0.0002
386.071	0.0002
386.431	0.0002
386.791	0.0002
387.15	0.0002
387.51	0.0002
387.87	0.0002
388.23	0.0002
388.589	0.0002
388.949	0.0002
389.309	0.0002
389.668	0.0002
390.028	0.0002
390.387	0.0002
390.747	0.0002
391.106	0.0002
391.466	0.0002
391.825	0.0002
392.184	0.0002
392.544	0.0002
392.903	0.0002
393.262	0.0002
393.621	0.0002
393.98	0.0002
394.339	0.0002
394.698	0.0002
395.057	0.0002
395.416	0.0002
395.775	0.0002
396.134	0.0002
396.493	0.0002
396.852	0.0002
397.211	0.0002
397.569	0.0002
397.928	0.0002
398.287	0.0002
398.645	0.0002
399.004	0.0002
399.362	0.0002
399.721	0.0002
400.079	0.0002
400.438	0.0002
400.796	0.0002
401.154	0.0002
401.512	0.0002
401.871	0.0002
402.229	0.0002
402.587	0.0002
402.945	0.0002
403.303	0.0002
403.661	0.0002
404.019	0.0002
404.377	0.0002
404.735	0.0002
405.093	0.0002
405.451	0.0002
405.808	0.0002
406.166	0.0002
406.524	0.0002
406.882	0.0002
407.239	0.0002
407.597	0.0002
407.954	0.0002
408.312	0.0002
408.669	0.0002
409.027	0.0002
409.384	0.0002
409.741	0.0002
410.099	0.0002
410.456	0.0002
410.813	0.0002
411.17	0.0002
411.527	0.0002
411.884	0.0002
412.242	0.0002
412.599	0.0002
412.956	0.0002
413.312	0.0002
413.669	0.0002
414.026	0.0002
414.383	0.0002
414.74	0.0002
415.096	0.0002
415.453	0.0002
415.81	0.0002
416.166	0.0002
416.523	0.0002
416.879	0.0002
417.236	0.0002
417.592	0.0002
417.949	0.0002
418.305	0.0002
418.661	0.0002
419.018	0.0002
419.374	0.0002
419.73	0.0002
420.086	0.0002
420.442	0.0002
420.798	0.0002
421.154	0.0002
421.51	0.0002
421.866	0.0002
422.222	0.0002
422.578	0.0002
422.934	0.0002
423.29	0.0002
423.646	0.0002
424.001	0.0002
424.357	0.0002
424.713	0.0002
425.068	0.0002
425.424	0.0002
425.779	0.0002
426.135	0.0002
426.49	0.0002
426.845	0.0002
427.201	0.0002
427.556	0.0002
427.911	0.0002
428.266	0.0002
428.622	0.0002
428.977	0.0002
429.332	0.0002
429.687	0.0002
430.042	0.0002
430.397	0.0002
430.752	0.0002
431.107	0.0002
431.461	0.0002
431.816	0.0002
432.171	0.0002
432.526	0.0002
432.88	0.0002
433.235	0.0002
433.59	0.0002
433.944	0.0002
434.299	0.0002
434.653	0.0002
435.008	0.0002
435.362	0.0002
435.716	0.0002
436.071	0.0002
436.425	0.0002
436.779	0.0002
437.133	0.0002
437.487	0.0002
437.841	0.0002
438.195	0.0002
438.549	0.0002
438.903	0.0002
439.257	0.0002
439.611	0.0002
439.965	0.0002
440.319	0.0002
440.673	0.0002
441.026	0.0002
441.38	0.0002
441.734	0.0002
442.087	0.0002
442.441	0.0002
442.794	0.0002
443.148	0.0002
443.501	0.0002
443.855	0.0002
444.208	0.0002
444.561	0.0002
444.915	0.0002
445.268	0.0002
445.621	0.0002
445.974	0.0002
446.327	0.0002
446.68	0.0002
447.033	0.0002
447.386	0.0002
447.739	0.0002
448.092	0.0002
448.445	0.0002
448.798	0.0002
449.15	0.0002
449.503	0.0002
449.856	0.0002
450.209	0.0002
450.561	0.0002
450.914	0.0002
451.266	0.0002
451.619	0.0002
451.971	0.0002
452.323	0.0002
452.676	0.0002
453.028	0.0002
453.38	0.0002
453.733	0.0002
454.085	0.0002
454.437	0.0002
454.789	0.0002
455.141	0.0002
455.493	0.0002
455.845	0.0002
456.197	0.0002
456.549	0.0002
456.901	0.0002
457.253	0.0002
457.604	0.0002
457.956	0.0002
458.308	0.0002
458.659	0.0002
459.011	0.0002
459.362	0.0002
459.714	0.0002
460.065	0.0002
460.417	0.0002
460.768	0.0002
461.12	0.0002
461.471	0.0002
461.822	0.0002
462.173	0.0002
462.525	0.0002
462.876	0.0002
463.227	0.0002
463.578	0.0002
463.929	0.0002
464.28	0.0002
464.631	0.0002
464.982	0.0002
465.332	0.0002
465.683	0.0002
466.034	0.0002
466.385	0.0002
466.735	0.0002
467.086	0.0002
467.437	0.0002
467.787	0.0002
468.138	0.0002
468.488	0.0002
468.839	0.0002
469.189	0.0002
469.539	0.0002
469.89	0.0002
470.24	0.0002
470.59	0.0002
470.94	0.0002
471.29	0.0002
471.64	0.0002
471.99	0.0002
472.34	0.0002
472.69	0.0002
473.04	0.0002
473.39	0.0002
473.74	0.0002
474.09	0.0002
474.439	0.0002
474.789	0.0002
475.139	0.0002
475.488	0.0002
475.838	0.0002
476.188	0.0002
476.537	0.0002
476.886	0.0002
477.236	0.0002
477.585	0.0002
477.935	0.0002
478.284	0.0002
478.633	0.0002
478.982	0.0002
479.331	0.0002
479.68	0.0002
480.03	0.0002
480.379	0.0002
480.728	0.0002
481.076	0.0002
481.425	0.0002
481.774	0.0002
482.123	0.0002
482.472	0.0002
482.821	0.0002
483.169	0.0002
483.518	0.0002
483.866	0.0002
484.215	0.0002
484.563	0.0002
484.912	0.0002
485.26	0.0002
485.609	0.0002
485.957	0.0002
486.305	0.0002
486.654	0.0002
487.002	0.0002
487.35	0.0002
487.698	0.0002
488.046	0.0002
488.394	0.0002
488.742	0.0002
489.09	0.0002
489.438	0.0002
489.786	0.0002
490.134	0.0002
490.482	0.0002
490.829	0.0002
491.177	0.0002
491.525	0.0002
491.872	0.0002
492.22	0.0002
492.567	0.0002
492.915	0.0002
493.262	0.0002
493.61	0.0002
493.957	0.0002
494.304	0.0002
494.652	0.0002
494.999	0.0002
495.346	0.0002
495.693	0.0002
496.04	0.0002
496.387	0.0002
496.734	0.0002
497.081	0.0002
497.428	0.0002
497.775	0.0002
498.122	0.0002
498.469	0.0002
498.816	0.0002
499.162	0.0002
499.509	0.0002
499.856	0.0002
500.202	0.0002
500.549	0.0002
500.895	0.0002
501.242	0.0002
501.588	0.0002
501.935	0.0002
502.281	0.0002
502.627	0.0002
502.973	0.0002
503.32	0.0002
503.666	0.0002
504.012	0.0002
504.358	0.0002
504.704	0.0002
505.05	0.0002
505.396	0.0002
505.742	0.0002
506.088	0.0002
506.433	0.0002
506.779	0.0002
507.125	0.0002
507.471	0.0002
507.816	0.0002
508.162	0.0002
508.507	0.0002
508.853	0.0002
509.198	0.0002
509.544	0.0002
509.889	0.0002
510.234	0.0002
510.58	0.0002
510.925	0.0002
511.27	0.0002
511.615	0.0002
511.96	0.0002
512.306	0.0002
512.651	0.0002
512.996	0.0002
513.341	0.0002
513.685	0.0002
514.03	0.0002
514.375	0.0002
514.72	0.0002
515.065	0.0002
515.409	0.0002
515.754	0.0002
516.099	0.0002
516.443	0.0002
516.788	0.0002
517.132	0.0002
517.476	0.0002
517.821	0.0002
518.165	0.0002
518.51	0.0002
518.854	0.0002
519.198	0.0002
519.542	0.0002
519.886	0.0002
520.23	0.0002
520.574	0.0002
520.918	0.0002
521.262	0.0002
521.606	0.0002
521.95	0.0002
522.294	0.0002
522.638	0.0002
522.981	0.0002
523.325	0.0002
523.669	0.0002
524.012	0.0002
524.356	0.0002
524.699	0.0002
525.043	0.0002
525.386	0.0002
525.73	0.0002
526.073	0.0002
526.416	0.0002
526.76	0.0002
527.103	0.0002
527.446	0.0002
527.789	0.0002
528.132	0.0002
528.475	0.0002
528.818	0.0002
529.161	0.0002
529.504	0.0002
529.847	0.0002
530.19	0.0002
530.532	0.0002
530.875	0.0002
531.218	0.0002
531.56	0.0002
531.903	0.0002
532.246	0.0002
532.588	0.0002
532.93	0.0002
533.273	0.0002
533.615	0.0002
533.958	0.0002
534.3	0.0002
534.642	0.0002
534.984	0.0002
535.326	0.0002
535.669	0.0002
536.011	0.0002
536.353	0.0002
536.695	0.0002
537.037	0.0002
537.378	0.0002
537.72	0.0002
538.062	0.0002
538.404	0.0002
538.746	0.0002
539.087	0.0002
539.429	0.0002
539.77	0.0002
540.112	0.0002
540.454	0.0002
540.795	0.0002
541.136	0.0002
541.478	0.0002
541.819	0.0002
542.16	0.0002
542.502	0.0002
542.843	0.0002
543.184	0.0002
543.525	0.0002
543.866	0.0002
544.207	0.0002
544.548	0.0002
544.889	0.0002
545.23	0.0002
545.571	0.0002
545.911	0.0002
546.252	0.0002
546.593	0.0002
546.934	0.0002
547.274	0.0002
547.615	0.0002
547.955	0.0002
548.296	0.0002
548.636	0.0002
548.977	0.0002
549.317	0.0002
549.657	0.0002
549.997	0.0002
550.338	0.0002
550.678	0.0002
551.018	0.0002
551.358	0.0002
551.698	0.0002
552.038	0.0002
552.378	0.0002
552.718	0.0002
553.058	0.0002
553.398	0.0002
553.737	0.0002
554.077	0.0002
554.417	0.0002
554.756	0.0002
555.096	0.0002
555.435	0.0002
555.775	0.0002
556.114	0.0002
556.454	0.0002
556.793	0.0002
557.133	0.0002
557.472	0.0002
557.811	0.0002
558.15	0.0002
558.489	0.0002
558.829	0.0002
559.168	0.0002
559.507	0.0002
559.846	0.0002
560.184	0.0002
560.523	0.0002
560.862	0.0002
561.201	0.0002
561.54	0.0002
561.878	0.0002
562.217	0.0002
562.556	0.0002
562.894	0.0002
563.233	0.0002
563.571	0.0002
563.91	0.0002
564.248	0.0002
564.586	0.0002
564.925	0.0002
565.263	0.0002
565.601	0.0002
565.939	0.0002
566.277	0.0002
566.616	0.0002
566.954	0.0002
567.292	0.0002
567.63	0.0002
567.967	0.0002
568.305	0.0002
568.643	0.0002
568.981	0.0002
569.319	0.0002
569.656	0.0002
569.994	0.0002
570.331	0.0002
570.669	0.0002
571.006	0.0002
571.344	0.0002
571.681	0.0002
572.019	0.0002
572.356	0.0002
572.693	0.0002
573.03	0.0002
573.368	0.0002
573.705	0.0002
574.042	0.0002
574.379	0.0002
574.716	0.0002
575.053	0.0002
575.39	0.0002
575.727	0.0002
576.063	0.0002
576.4	0.0002
576.737	0.0002
577.074	0.0002
577.41	0.0002
577.747	0.0002
578.083	0.0002
578.42	0.0002
578.756	0.0002
579.093	0.0002
579.429	0.0002
579.766	0.0002
580.102	0.0002
580.438	0.0002
580.774	0.0002
581.11	0.0002
581.446	0.0002
581.782	0.0002
582.119	0.0002
582.454	0.0002
582.79	0.0002
583.126	0.0002
583.462	0.0002
583.798	0.0002
584.134	0.0002
584.469	0.0002
584.805	0.0002
585.141	0.0002
585.476	0.0002
585.812	0.0002
586.147	0.0002
586.482	0.0002
586.818	0.0002
587.153	0.0002
587.488	0.0002
587.824	0.0002
588.159	0.0002
588.494	0.0002
588.829	0.0002
589.164	0.0002
589.499	0.0002
589.834	0.0002
590.169	0.0002
590.504	0.0002
590.839	0.0002
591.174	0.0002
591.508	0.0002
591.843	0.0002
592.178	0.0002
592.512	0.0002
592.847	0.0002
593.181	0.0002
593.516	0.0002
593.85	0.0002
594.185	0.0002
594.519	0.0002
594.853	0.0002
595.187	0.0002
595.522	0.0002
595.856	0.0002
596.19	0.0002
596.524	0.0002
596.858	0.0002
597.192	0.0002
597.526	0.0002
597.86	0.0002
598.194	0.0002
598.527	0.0002
598.861	0.0002
599.195	0.0002
599.528	0.0002
599.862	0.0002
600.196	0.0002
600.529	0.0002
600.863	0.0002
601.196	0.0002
601.529	0.0002
601.863	0.0002
602.196	0.0002
602.529	0.0002
602.862	0.0002
603.196	0.0002
603.529	0.0002
603.862	0.0002
604.195	0.0002
604.528	0.0002
604.861	0.0002
605.193	0.0002
605.526	0.0002
605.859	0.0002
606.192	0.0002
606.524	0.0002
606.857	0.0002
607.19	0.0002
607.522	0.0002
607.855	0.0002
608.187	0.0002
608.52	0.0002
608.852	0.0002
609.184	0.0002
609.517	0.0002
609.849	0.0002
610.181	0.0002
610.513	0.0002
610.845	0.0002
611.177	0.0002
611.509	0.0002
611.841	0.0002
612.173	0.0002
612.505	0.0002
612.837	0.0002
613.169	0.0002
613.5	0.0002
613.832	0.0002
614.164	0.0002
614.495	0.0002
614.827	0.0002
615.158	0.0002
615.49	0.0002
615.821	0.0002
616.152	0.0002
616.484	0.0002
616.815	0.0002
617.146	0.0002
617.477	0.0002
617.808	0.0002
618.14	0.0002
618.471	0.0002
618.802	0.0002
619.133	0.0002
619.463	0.0002
619.794	0.0002
620.125	0.0002
620.456	0.0002
620.787	0.0002
621.117	0.0002
621.448	0.0002
621.778	0.0002
622.109	0.0002
622.439	0.0002
622.77	0.0002
623.1	0.0002
623.43	0.0002
623.761	0.0002
624.091	0.0002
624.421	0.0002
624.751	0.0002
625.081	0.0002
625.412	0.0002
625.742	0.0002
626.072	0.0002
626.401	0.0002
626.731	0.0002
627.061	0.0002
627.391	0.0002
627.721	0.0002
628.05	0.0002
628.38	0.0002
628.71	0.0002
629.039	0.0002
629.369	0.0002
629.698	0.0002
630.028	0.0002
630.357	0.0002
630.686	0.0002
631.015	0.0002
631.345	0.0002
631.674	0.0002
632.003	0.0002
632.332	0.0002
632.661	0.0002
632.99	0.0002
633.319	0.0002
633.648	0.0002
633.977	0.0002
634.306	0.0002
634.634	0.0002
634.963	0.0002
635.292	0.0002
635.62	0.0002
635.949	0.0002
636.277	0.0002
636.606	0.0002
636.934	0.0002
637.263	0.0002
637.591	0.0002
637.919	0.0002
638.248	0.0002
638.576	0.0002
638.904	0.0002
639.232	0.0002
639.56	0.0002
639.888	0.0002
640.216	0.0002
640.544	0.0002
640.872	0.0002
641.2	0.0002
641.528	0.0002
641.855	0.0002
642.183	0.0002
642.511	0.0002
642.838	0.0002
643.166	0.0002
643.493	0.0002
643.821	0.0002
644.148	0.0002
644.475	0.0002
644.803	0.0002
645.13	0.0002
645.457	0.0002
645.784	0.0002
646.112	0.0002
646.439	0.0002
646.766	0.0002
647.093	0.0002
647.42	0.0002
647.746	0.0002
648.073	0.0002
648.4	0.0002
648.727	0.0002
649.053	0.0002
649.38	0.0002
649.707	0.0002
650.033	0.0002
650.36	0.0002
650.686	0.0002
651.013	0.0002
651.339	0.0002
651.665	0.0002
651.992	0.0002
652.318	0.0002
652.644	0.0002
652.97	0.0002
653.296	0.0002
653.622	0.0002
653.948	0.0002
654.274	0.0002
654.6	0.0002
654.926	0.0002
655.252	0.0002
655.578	0.0002
655.903	0.0002
656.229	0.0002
656.555	0.0002
656.88	0.0002
657.206	0.0002
657.531	0.0002
657.857	0.0002
658.182	0.0002
658.507	0.0002
658.833	0.0002
659.158	0.0002
659.483	0.0002
659.808	0.0002
660.133	0.0002
660.458	0.0002
660.783	0.0002
661.108	0.0002
661.433	0.0002
661.758	0.0002
662.083	0.0002
662.408	0.0002
662.732	0.0002
663.057	0.0002
663.382	0.0002
663.706	0.0002
664.031	0.0002
664.355	0.0002
664.68	0.0002
665.004	0.0002
665.328	0.0002
665.653	0.0002
665.977	0.0002
666.301	0.0002
666.625	0.0002
666.949	0.0002
667.273	0.0002
667.597	0.0002
667.921	0.0002
668.245	0.0002
668.569	0.0002
668.893	0.0002
669.217	0.0002
669.54	0.0002
669.864	0.0002
670.188	0.0002
670.511	0.0002
670.835	0.0002
671.158	0.0002
671.482	0.0002
671.805	0.0002
672.128	0.0002
672.452	0.0002
672.775	0.0002
673.098	0.0002
673.421	0.0002
673.744	0.0002
674.068	0.0002
674.391	0.0002
674.714	0.0002
675.036	0.0002
675.359	0.0002
675.682	0.0002
676.005	0.0002
676.328	0.0002
676.65	0.0002
676.973	0.0002
677.295	0.0002
677.618	0.0002
677.94	0.0002
678.263	0.0002
678.585	0.0002
678.908	0.0002
679.23	0.0002
679.552	0.0002
679.874	0.0002
680.196	0.0002
680.519	0.0002
680.841	0.0002
681.163	0.0002
681.485	0.0002
681.807	0.0002
682.128	0.0002
682.45	0.0002
682.772	0.0002
683.094	0.0002
683.415	0.0002
683.737	0.0002
684.059	0.0002
684.38	0.0002
684.702	0.0002
685.023	0.0002
685.344	0.0002
685.666	0.0002
685.987	0.0002
686.308	0.0002
686.629	0.0002
686.95	0.0002
687.272	0.0002
687.593	0.0002
687.914	0.0002
688.235	0.0002
688.555	0.0002
688.876	0.0002
689.197	0.0002
689.518	0.0002
689.839	0.0002
690.159	0.0002
690.48	0.0002
690.8	0.0002
691.121	0.0002
691.441	0.0002
691.762	0.0002
692.082	0.0002
692.402	0.0002
692.723	0.0002
693.043	0.0002
693.363	0.0002
693.683	0.0002
694.003	0.0002
694.323	0.0002
694.643	0.0002
694.963	0.0002
695.283	0.0002
695.603	0.0002
695.923	0.0002
696.243	0.0002
696.562	0.0002
696.882	0.0002
697.202	0.0002
697.521	0.0002
697.841	0.0002
698.16	0.0002
698.479	0.0002
698.799	0.0002
699.118	0.0002
699.437	0.0002
699.757	0.0002
700.076	0.0002
700.395	0.0002
700.714	0.0002
701.033	0.0002
701.352	0.0002
701.671	0.0002
701.99	0.0002
702.308	0.0002
702.627	0.0002
702.946	0.0002
703.265	0.0002
703.583	0.0002
703.902	0.0002
704.22	0.0002
704.539	0.0002
704.857	0.0002
705.176	0.0002
705.494	0.0002
705.812	0.0002
706.131	0.0002
706.449	0.0002
706.767	0.0002
707.085	0.0002
707.403	0.0002
707.721	0.0002
708.039	0.0002
708.357	0.0002
708.675	0.0002
708.993	0.0002
709.31	0.0002
709.628	0.0002
709.946	0.0002
710.263	0.0002
710.581	0.0002
710.898	0.0002
711.216	0.0002
711.533	0.0002
711.851	0.0002
712.168	0.0002
712.485	0.0002
712.802	0.0002
713.12	0.0002
713.437	0.0002
713.754	0.0002
714.071	0.0002
714.388	0.0002
714.705	0.0002
715.022	0.0002
715.338	0.0002
715.655	0.0002
715.972	0.0002
716.289	0.0002
716.605	0.0002
716.922	0.0002
717.238	0.0002
717.555	0.0002
717.871	0.0002
718.188	0.0002
718.504	0.0002
718.82	0.0002
719.136	0.0002
719.453	0.0002
719.769	0.0002
720.085	0.0002
720.401	0.0002
720.717	0.0002
721.033	0.0002
721.349	0.0002
721.665	0.0002
721.98	0.0002
722.296	0.0002
722.612	0.0002
722.927	0.0002
723.243	0.0002
723.559	0.0002
723.874	0.0002
724.19	0.0002
724.505	0.0002
724.82	0.0002
725.136	0.0002
725.451	0.0002
725.766	0.0002
726.081	0.0002
726.396	0.0002
726.711	0.0002
727.026	0.0002
727.341	0.0002
727.656	0.0002
727.971	0.0002
728.286	0.0002
728.601	0.0002
728.916	0.0002
729.23	0.0002
729.545	0.0002
729.859	0.0002
730.174	0.0002
730.488	0.0002
730.803	0.0002
731.117	0.0002
731.431	0.0002
731.746	0.0002
732.06	0.0002
732.374	0.0002
732.688	0.0002
733.002	0.0002
733.316	0.0002
733.63	0.0002
733.944	0.0002
734.258	0.0002
734.572	0.0002
734.886	0.0002
735.199	0.0002
735.513	0.0002
735.827	0.0002
736.14	0.0002
736.454	0.0002
736.767	0.0002
737.081	0.0002
737.394	0.0002
737.708	0.0002
738.021	0.0002
738.334	0.0002
738.647	0.0002
738.96	0.0002
739.273	0.0002
739.587	0.0002
739.9	0.0002
740.212	0.0002
740.525	0.0002
740.838	0.0002
741.151	0.0002
741.464	0.0002
741.776	0.0002
742.089	0.0002
742.402	0.0002
742.714	0.0002
743.027	0.0002
743.339	0.0002
743.651	0.0002
743.964	0.0002
744.276	0.0002
744.588	0.0002
744.901	0.0002
745.213	0.0002
745.525	0.0002
745.837	0.0002
746.149	0.0002
746.461	0.0002
746.773	0.0002
747.085	0.0002
747.396	0.0002
747.708	0.0002
748.02	0.0002
748.331	0.0002
748.643	0.0002
748.955	0.0002
749.266	0.0002
749.577	0.0002
749.889	0.0002
750.2	0.0002
750.512	0.0002
750.823	0.0002
751.134	0.0002
751.445	0.0002
751.756	0.0002
752.067	0.0002
752.378	0.0002
752.689	0.0002
753	0.0002
753.311	0.0002
753.622	0.0002
753.932	0.0002
754.243	0.0002
754.554	0.0002
754.864	0.0002
755.175	0.0002
755.485	0.0002
755.796	0.0002
756.106	0.0002
756.417	0.0002
756.727	0.0002
757.037	0.0002
757.347	0.0002
757.658	0.0002
757.968	0.0002
758.278	0.0002
758.588	0.0002
758.898	0.0002
759.208	0.0002
759.517	0.0002
759.827	0.0002
760.137	0.0002
760.447	0.0002
760.756	0.0002
761.066	0.0002
761.375	0.0002
761.685	0.0002
761.994	0.0002
762.304	0.0002
762.613	0.0002
762.922	0.0002
763.232	0.0002
763.541	0.0002
763.85	0.0002
764.159	0.0002
764.468	0.0002
764.777	0.0002
765.086	0.0002
765.395	0.0002
765.704	0.0002
766.013	0.0002
766.321	0.0002
766.63	0.0002
766.939	0.0002
767.247	0.0002
767.556	0.0002
767.864	0.0002
768.173	0.0002
768.481	0.0002
768.789	0.0002
769.098	0.0002
769.406	0.0002
769.714	0.0002
770.022	0.0002
770.33	0.0002
770.638	0.0002
770.946	0.0002
771.254	0.0002
771.562	0.0002
771.87	0.0002
772.178	0.0002
772.486	0.0002
772.793	0.0002
773.101	0.0002
773.408	0.0002
773.716	0.0002
774.023	0.0002
774.331	0.0002
774.638	0.0002
774.946	0.0002
775.253	0.0002
775.56	0.0002
775.867	0.0002
776.174	0.0002
776.481	0.0002
776.788	0.0002
777.095	0.0002
777.402	0.0002
777.709	0.0002
778.016	0.0002
778.323	0.0002
778.63	0.0002
778.936	0.0002
779.243	0.0002
779.549	0.0002
779.856	0.0002
780.162	0.0002
780.469	0.0002
780.775	0.0002
781.082	0.0002
781.388	0.0002
781.694	0.0002
782	0.0002
782.306	0.0002
782.612	0.0002
782.918	0.0002
783.224	0.0002
783.53	0.0002
783.836	0.0002
784.142	0.0002
784.448	0.0002
784.753	0.0002
785.059	0.0002
785.365	0.0002
785.67	0.0002
785.976	0.0002
786.281	0.0002
786.586	0.0002
786.892	0.0002
787.197	0.0002
787.502	0.0002
787.808	0.0002
788.113	0.0002
788.418	0.0002
788.723	0.0002
789.028	0.0002
789.333	0.0002
789.638	0.0002
789.942	0.0002
790.247	0.0002
790.552	0.0002
790.857	0.0002
791.161	0.0002
791.466	0.0002
791.77	0.0002
792.075	0.0002
792.379	0.0002
792.684	0.0002
792.988	0.0002
793.292	0.0002
793.597	0.0002
793.901	0.0002
794.205	0.0002
794.509	0.0002
794.813	0.0002
795.117	0.0002
795.421	0.0002
795.725	0.0002
796.029	0.0002
796.332	0.0002
796.636	0.0002
796.94	0.0002
797.243	0.0002
797.547	0.0002
797.85	0.0002
798.154	0.0002
798.457	0.0002
798.761	0.0002
799.064	0.0002
799.367	0.0002
799.67	0.0002
799.973	0.0002
800.277	0.0002
800.58	0.0002
800.883	0.0002
801.186	0.0002
801.488	0.0002
801.791	0.0002
802.094	0.0002
802.397	0.0002
802.699	0.0002
803.002	0.0002
803.305	0.0002
803.607	0.0002
803.91	0.0002
804.212	0.0002
804.515	0.0002
804.817	0.0002
805.119	0.0002
805.421	0.0002
805.724	0.0002
806.026	0.0002
806.328	0.0002
806.63	0.0002
806.932	0.0002
807.234	0.0002
807.535	0.0002
807.837	0.0002
808.139	0.0002
808.441	0.0002
808.742	0.0002
809.044	0.0002
809.346	0.0002
809.647	0.0002
809.948	0.0002
810.25	0.0002
810.551	0.0002
810.853	0.0002
811.154	0.0002
811.455	0.0002
811.756	0.0002
812.057	0.0002
812.358	0.0002
812.659	0.0002
812.96	0.0002
813.261	0.0002
813.562	0.0002
813.863	0.0002
814.163	0.0002
814.464	0.0002
814.765	0.0002
815.065	0.0002
815.366	0.0002
815.666	0.0002
815.967	0.0002
816.267	0.0002
816.567	0.0002
816.868	0.0002
817.168	0.0002
817.468	0.0002
817.768	0.0002
818.068	0.0002
818.368	0.0002
818.668	0.0002
818.968	0.0002
819.268	0.0002
819.568	0.0002
819.867	0.0002
820.167	0.0002
820.467	0.0002
820.766	0.0002
821.066	0.0002
821.365	0.0002
821.665	0.0002
821.964	0.0002
822.263	0.0002
822.563	0.0002
822.862	0.0002
823.161	0.0002
823.46	0.0002
823.759	0.0002
824.058	0.0002
824.357	0.0002
824.656	0.0002
824.955	0.0002
825.254	0.0002
825.552	0.0002
825.851	0.0002
826.15	0.0002
826.448	0.0002
826.747	0.0002
827.045	0.0002
827.344	0.0002
827.642	0.0002
827.941	0.0002
828.239	0.0002
828.537	0.00014
828.835	0.00008
829.133	0.00001
829.432	0.00006
829.73	0.00004
830.028	0.00003
830.325	0.00011
830.623	0.00015
830.921	0.00033
831.219	0.00036
831.517	-0.00005
831.814	0.00007
832.112	0.00004
832.409	-0.00019
832.707	-0.00036
833.004	-0.00059
833.302	-0.00051
833.599	-0.0001
833.896	-0.00034
834.194	-0.00022
834.491	-0.00018
834.788	0.00023
835.085	0.00032
835.382	0.00035
835.679	0.00019
835.976	0.00024
836.273	0.0003
836.57	0.00043
836.866	0.00011
837.163	0.0003
837.46	0.00092
837.756	0.0009
838.053	0.00102
838.349	0.00101
838.646	0.00107
838.942	0.00109
839.239	0.00096
839.535	-0
839.831	-0.00005
840.127	0.00001
840.423	-0.00012
840.72	-0.00055
841.016	-0.00033
841.312	-0.00037
841.607	-0.00074
841.903	-0.00004
842.199	0.00031
842.495	0.00003
842.791	-0.00015
843.086	-0.0008
843.382	-0.00079
843.677	-0.00037
843.973	-0.00133
844.268	-0.00228
844.564	-0.00282
844.859	-0.00188
845.154	-0.00063
845.45	-0.00068
845.745	-0.00028
846.04	-0.00007
846.335	-0.00025
846.63	0.00088
846.925	0.00084
847.22	-0.00017
847.515	0.00025
847.81	-0.00074
848.104	-0.00045
848.399	0.00004
848.694	0.00062
848.988	-0.00041
849.283	-0.00006
849.578	-0.00098
849.872	0.00131
850.166	0.00191
850.461	0.00293
850.755	0.00264
851.049	0.00229
851.343	0.00221
851.638	0.00322
851.932	0.00233
852.226	0.00181
852.52	0.00223
852.814	0.00329
853.107	0.00528
853.401	0.00653
853.695	0.00649
853.989	0.00741
854.282	0.00665
854.576	0.00632
854.869	0.00266
855.163	0.0027
855.456	0.00201
855.75	0.00221
856.043	-0.00201
856.336	0.00164
856.63	-0.00078
856.923	0.00291
857.216	0.00119
857.509	0.00157
857.802	0.00189
858.095	0.00439
858.388	0.00238
858.681	0.00498
858.974	0.00179
859.266	0.00535
859.559	0.00316
859.852	0.00035
860.144	-0.00178
860.437	0.00074
860.729	-0.0004
861.022	0.00186
861.314	-0.00114
861.606	-0.00082
861.899	0.00159
862.191	0.01196
862.483	0.00982
862.775	0.01248
863.067	0.01038
863.359	0.01344
863.651	0.00826
863.943	0.00816
864.235	0.00783
864.527	0.02153
864.819	0.01627
865.11	0.02151
865.402	0.03214
865.693	0.03632
865.985	0.04246
866.276	0.03616
866.568	0.02067
866.859	0.02572
867.151	0.02672
867.442	0.01593
867.733	0.02759
868.024	0.01329
868.315	0.01394
868.606	0.01622
868.897	0.01918
869.188	0.01222
869.479	0.01641
869.77	0.01045
870.061	0.01255
870.351	0.01375
870.642	0.00944
870.933	0.00308
871.223	0.01066
871.514	0.01604
871.804	0.01949
872.095	0.02668
872.385	0.02664
872.675	0.03651
